File: calc_refractive/InGaN_FTIR.csv
,Absorbance Spectrum,Absorbance Spectrum,,Absorbance Spectrum,Absorbance Spectrum,Absorbance Spectrum,Absorbance Spectrum,Absorbance Spectrum,Absorbance Spectrum,Absorbance Spectrum,Absorbance Spectrum,Absorbance Spectrum,Absorbance Spectrum
Wavenumber cm-1,,,,,,,,,,,,,
,Lumilog_GaN_substrate 20degC,Lumilog_GaN_substrate_80degC,LUMILOG_GaN_substrate_-160degC,B120504_InGaN_20degC,B120504_InGaN_80degC,B120504_InGaN_20degC_Vak,B120504_InGaN_-160degC_Vak,J130828_10nm_M16_InGaN_20degC_Vak,J130828_10nm_M16_InGaN_-160degC_Vak,J130828_10nm_M16_InGaN_90degC,J140228_3nm_InGaN_20degC,J140228_3nm_InGaN_90degC,J140228_3nm_InGaN_-160degC
7999.37,0.547562,0.571888,1.29707,0.402964,0.432407,0.487249,0.596061,0.74008,0.736118,0.730045,0.893198,0.892431,0.976756
7981.05,0.509567,0.50256,1.28944,0.413822,0.380765,0.47046,0.568264,0.726241,0.756783,0.705915,0.88337,0.895893,0.977252
7962.72,0.500784,0.518765,1.28616,0.415489,0.440831,0.49706,0.546365,0.748251,0.763144,0.717434,0.894123,0.890213,0.986138
7944.4,0.48906,0.487515,1.33599,0.377601,0.395329,0.493654,0.56204,0.74057,0.760898,0.726634,0.906301,0.914228,0.964629
7926.08,0.489845,0.481722,1.24961,0.405053,0.431945,0.524394,0.5568,0.752372,0.76446,0.73657,0.887174,0.893659,0.969836
7907.76,0.472108,0.491029,1.33217,0.418267,0.410463,0.510398,0.564026,0.750992,0.766787,0.736214,0.889835,0.880778,1.00745
7889.43,0.441999,0.451967,1.26454,0.386607,0.397639,0.479327,0.578296,0.754003,0.780087,0.727287,0.903857,0.885364,0.968294
7871.11,0.504059,0.498068,1.24759,0.396423,0.413312,0.544663,0.580319,0.754712,0.774068,0.727179,0.886332,0.901133,0.971926
7852.79,0.436831,0.461099,1.27572,0.380067,0.401347,0.51056,0.541749,0.750924,0.768237,0.727534,0.890606,0.856249,0.977207
7834.46,0.43364,0.457631,1.27387,0.383446,0.401477,0.478311,0.578286,0.747601,0.766145,0.727787,0.906868,0.895577,0.968727
7816.14,0.454229,0.463051,1.29544,0.397806,0.397054,0.497635,0.574651,0.751664,0.777512,0.74186,0.902846,0.903615,0.985723
7797.82,0.427497,0.412046,1.28786,0.37542,0.394214,0.493457,0.569534,0.757405,0.782693,0.749281,0.900727,0.898469,0.972438
7779.5,0.463567,0.484902,1.30997,0.391988,0.410471,0.485614,0.559927,0.75992,0.783642,0.739661,0.909689,0.907633,0.956085
7761.17,0.42378,0.414877,1.30005,0.345015,0.36814,0.497127,0.547566,0.757082,0.782643,0.740652,0.894208,0.901812,0.974429
7742.85,0.444673,0.417132,1.3153,0.38506,0.371052,0.480415,0.523189,0.765978,0.78895,0.754339,0.893148,0.865171,0.971395
7724.53,0.433265,0.438873,1.34039,0.347385,0.36926,0.495791,0.547555,0.762559,0.791595,0.7367,0.898315,0.888416,0.963268
7706.2,0.432289,0.434182,1.28542,0.34859,0.366069,0.459716,0.548931,0.771594,0.798823,0.747476,0.895584,0.900699,0.9642
7687.88,0.419107,0.416221,1.32349,0.324946,0.336719,0.440638,0.515006,0.771102,0.797413,0.754628,0.885368,0.890378,0.971332
7669.56,0.44724,0.44047,1.34711,0.347304,0.369665,0.468772,0.517937,0.775431,0.799212,0.748397,0.892902,0.894952,0.961867
7651.24,0.467317,0.468059,1.32025,0.329829,0.353653,0.431888,0.532977,0.773478,0.801951,0.752247,0.89256,0.905352,0.972613
7632.91,0.458506,0.463404,1.33366,0.340223,0.364834,0.464683,0.532301,0.7824862,0.798499,0.756789,0.897326,0.900493,0.972955
7614.59,0.462337,0.468992,1.33765,0.331907,0.354715,0.461656,0.519901,0.773707,0.802469,0.746776,0.912092,0.880481,0.973181
7596.27,0.478007,0.499194,1.35807,0.320839,0.352668,0.463902,0.519726,0.775662,0.799294,0.749869,0.894609,0.902856,0.998028
7577.94,0.504118,0.491852,1.3545,0.317056,0.34225,0.446197,0.514459,0.771131,0.798766,0.751337,0.914167,0.900176,1.00078
7559.62,0.485821,0.484912,1.35073,0.323181,0.346371,0.427624,0.51277,0.774584,0.803253,0.751193,0.90583,0.906496,0.996626
7541.3,0.486184,0.493977,1.33803,0.333305,0.342301,0.454081,0.526797,0.7740224,0.805708,0.753407,0.921907,0.921446,0.988669
7522.98,0.519253,0.488019,1.38609,0.320138,0.343296,0.449263,0.517083,0.776003,0.811147,0.757594,0.916376,0.909875,0.999277
7504.65,0.459373,0.460746,1.34447,0.319826,0.337717,0.44394,0.513532,0.779656,0.823145,0.7609,0.911924,0.911519,0.996084
7486.33,0.476044,0.469575,1.34943,0.300911,0.318048,0.440539,0.513698,0.780979,0.826377,0.765585,0.92904,0.92242,1.00017
7468.01,0.448429,0.45235,1.34929,0.290358,0.305101,0.433973,0.507335,0.792241,0.8226161,0.764049,0.926411,0.902407,1.00215
7449.68,0.457779,0.45234,1.38817,0.318188,0.309899,0.44584,0.507462,0.789478,0.827411,0.767072,0.927837,0.918127,1.00496
7431.36,0.468692,0.472475,1.36354,0.314178,0.34141,0.438129,0.527721,0.795486,0.833807,0.779236,0.918429,0.917227,1.00597
7413.04,0.448449,0.440569,1.40231,0.317514,0.324937,0.453379,0.509339,0.806832,0.832627,0.775152,0.92902,0.912117,1.01627
7394.72,0.452768,0.455589,1.35363,0.306289,0.32833,0.450607,0.513914,0.795373,0.829652,0.774433,0.912929,0.904479,0.993038
7376.39,0.420767,0.449396,1.32284,0.303458,0.320703,0.467081,0.519098,0.780522,0.810603,0.762666,0.89675,0.883432,0.978399
7358.07,0.418678,0.419852,1.37632,0.291778,0.319069,0.445033,0.516585,0.819562,0.844988,0.801897,0.92667,0.929154,1.00961
7339.75,0.417337,0.428405,1.35521,0.314616,0.328073,0.434489,0.506014,0.827121,0.856045,0.806424,0.904221,0.907102,0.982319
7321.42,0.412308,0.428393,1.3779,0.304905,0.330726,0.437042,0.501785,0.832083,0.860897,0.811615,0.945078,0.937706,1.02787
7303.1,0.39096,0.401792,1.3674,0.282408,0.311995,0.427581,0.498232,0.828091,0.857906,0.804951,0.937152,0.917767,1.00592
7284.78,0.396314,0.409089,1.35741,0.28566,0.303979,0.44299,0.48866,0.82548,0.849046,0.807272,0.931754,0.920782,1.0137
7266.46,0.375168,0.388782,1.35077,0.266366,0.280416,0.413034,0.482593,0.830919,0.859893,0.810294,0.925383,0.930758,1.00973
7248.13,0.393785,0.394377,1.36088,0.27444,0.286426,0.418678,0.477012,0.82245,0.850833,0.809716,0.928767,0.917818,1.02057
7229.81,0.38214,0.394582,1.38128,0.26449,0.29062,0.410696,0.479241,0.85578,0.873107,0.830967,0.965337,0.957444,1.04723
7211.49,0.403443,0.394814,1.35891,0.26235,0.288199,0.412349,0.482673,0.826854,0.854357,0.809328,0.938191,0.930998,1.02248
7193.16,0.388524,0.38344,1.36539,0.262773,0.269982,0.408178,0.463021,0.827731,0.857564,0.81383,0.93851,0.938109,1.01928
7174.84,0.38723,0.400969,1.35496,0.252082,0.274598,0.396972,0.470395,0.823887,0.856502,0.802222,0.92799,0.916982,1.01134
7156.52,0.412816,0.407736,1.363,0.250623,0.273082,0.404247,0.464281,0.825569,0.858259,0.805652,0.939197,0.926603,1.01862
7138.2,0.409057,0.403334,1.3748,0.252324,0.276881,0.400613,0.477532,0.843232,0.878755,0.826997,0.949093,0.947549,1.03346
7119.87,0.420757,0.4163,1.38219,0.243211,0.272953,0.402505,0.46999,0.830298,0.863904,0.809488,0.941304,0.94248,1.04224
7101.55,0.4155626,0.419166,1.37429,0.245183,0.260801,0.401247,0.473166,0.833546,0.86772,0.804924,0.942957,0.93949,1.02281
7083.23,0.427064,0.432523,1.38521,0.243434,0.261501,0.394635,0.467732,0.833261,0.872658,0.809624,0.945083,0.937034,1.0242
7064.9,0.441668,0.436851,1.40002,0.257407,0.262275,0.411028,0.469929,0.840613,0.873604,0.817508,0.940208,0.942736,1.01827
7046.58,0.444415,0.449738,1.39188,0.260445,0.278483,0.413773,0.475607,0.845834,0.875538,0.823626,0.936583,0.930428,1.0272
7028.26,0.454065,0.446465,1.41951,0.25769,0.267435,0.396753,0.476284,0.846702,0.875057,0.823267,0.941776,0.940532,1.02064
7009.94,0.455951,0.458766,1.41448,0.260002,0.265623,0.401354,0.476973,0.852792,0.88421,0.831523,0.935235,0.931116,1.02691
6991.61,0.465071,0.465632,1.44232,0.256464,0.27326,0.410654,0.487784,0.854887,0.887366,0.833272,0.938786,0.930862,1.01964
6973.29,0.459591,0.465475,1.42014,0.251,0.260866,0.405205,0.468923,0.855125,0.881808,0.833952,0.934008,0.930862,1.02207
6954.97,0.475261,0.480628,1.42525,0.254405,0.265004,0.404973,0.478872,0.857553,0.887697,0.835909,0.934708,0.932096,1.02362
6936.64,0.475398,0.473912,1.43607,0.246032,0.262706,0.399301,0.471051,0.859722,0.890474,0.839496,0.94216,0.936049,1.02881
6918.32,0.464775,0.464133,1.42679,0.239628,0.249071,0.386216,0.459253,0.856289,0.879249,0.835719,0.939879,0.931282,1.02616
6900,0.461778,0.46736,1.43143,0.237292,0.251663,0.397883,0.464907,0.860577,0.886316,0.839312,0.948162,0.934659,1.03722
6881.68,0.470343,0.4661237,1.44012,0.236694,0.247038,0.39714,0.460948,0.861152,0.888941,0.835469,0.949696,0.933008,1.0379
6863.35,0.456535,0.458425,1.4336,0.228182,0.236726,0.385386,0.451621,0.854423,0.888801,0.83632,0.953803,0.944899,1.03952
6845.03,0.45251,0.460376,1.43864,0.223341,0.233979,0.378083,0.446268,0.856614,0.88593,0.83304,0.958251,0.949344,1.04572
6826.71,0.452569,0.463234,1.43173,0.225577,0.236891,0.381964,0.454876,0.847509,0.883018,0.838286,0.962837,0.948652,1.04729
6808.38,0.429995,0.437484,1.43061,0.219298,0.226347,0.376401,0.439695,0.851041,0.887162,0.831506,0.962703,0.955702,1.04912
6790.06,0.426,0.442829,1.41829,0.219924,0.227301,0.371658,0.446377,0.851019,0.88927,0.832619,0.969868,0.956219,1.05484
6771.74,0.4197101,0.432521,1.40813,0.227266,0.226779,0.378449,0.446367,0.849181,0.888635,0.831674,0.968397,0.955597,1.05281
6753.42,0.410964,0.422379,1.42098,0.224534,0.233047,0.383904,0.453458,0.853019,0.890803,0.836984,0.965208,0.960889,1.05211
6735.09,0.407736,0.416732,1.40667,0.231709,0.232658,0.387427,0.461216,0.853928,0.894326,0.834194,0.972433,0.956576,1.05511
6716.77,0.399363,0.405847,1.40698,0.238075,0.244813,0.401654,0.458259,0.85575,0.896182,0.834828,0.972234,0.962062,1.05469
6698.45,0.39544,0.401418,1.4009,0.238657,0.23755,0.399822,0.468874,0.861138,0.896966,0.839666,0.972612,0.958274,1.05369
6680.12,0.392127,0.400493,1.39051,0.243546,0.247559,0.400448,0.468235,0.866616,0.900152,0.846486,0.971739,0.962714,1.05692
6661.8,0.383169,0.392998,1.40023,0.249537,0.252042,0.406588,0.472105,0.869051,0.905731,0.849431,0.970084,0.959741,1.0528
6643.48,0.388433,0.392157,1.39561,0.251321,0.257466,0.409273,0.479554,0.874404,0.904805,0.852765,0.970707,0.960534,1.05193
6625.16,0.381487,0.38678,1.39898,0.262538,0.257498,0.416197,0.481111,0.876384,0.911852,0.856078,0.97032,0.961492,1.04883
6606.83,0.385133,0.388872,1.40691,0.257701,0.258666,0.4120498,0.479807,0.881998,0.914457,0.86209,0.971246,0.961704,1.05519
6588.51,0.391619,0.392384,1.39604,0.255203,0.261279,0.411133,0.481043,0.881757,0.913078,0.861412,0.972761,0.959416,1.05705
6570.19,0.392562,0.392618,1.40595,0.260688,0.259917,0.41735,0.480867,0.8841,0.915224,0.864218,0.971291,0.962312,1.05929
6551.86,0.390095,0.392454,1.4139,0.252791,0.259196,0.406521,0.478741,0.884557,0.916027,0.864828,0.975208,0.969072,1.06298
6533.54,0.398159,0.405782,1.41985,0.252852,0.255717,0.410434,0.472888,0.886232,0.917727,0.865954,0.979575,0.971215,1.06745
6515.22,0.406994,0.404989,1.42689,0.25005,0.25467,0.410015,0.472663,0.885193,0.915799,0.868519,0.982059,0.970544,1.06331
6496.9,0.418545,0.420214,1.43205,0.245583,0.252658,0.39878,0.472896,0.885716,0.918042,0.867403,0.989773,0.976273,1.06924
6478.57,0.422276,0.418412,1.4338,0.243272,0.248213,0.400682,0.461744,0.883272,0.919986,0.869046,0.991736,0.979887,1.0773
6460.25,0.426445,0.432846,1.44394,0.232567,0.242403,0.38998,0.45811,0.883802,0.919383,0.866628,0.993631,0.980966,1.08049
6441.93,0.43241,0.437531,1.44498,0.236583,0.237884,0.393618,0.46084,0.883313,0.921627,0.866653,0.999161,0.987208,1.08204
6423.6,0.437191,0.446479,1.45884,0.230943,0.234287,0.391373,0.457863,0.886382,0.920134,0.866975,1.00248,0.991481,1.08459
6405.28,0.439914,0.43925,1.45941,0.228558,0.230453,0.391137,0.452253,0.886828,0.92805,0.869609,1.00306,0.989666,1.08383
6386.96,0.441641,0.449811,1.45856,0.227961,0.230268,0.385162,0.456238,0.89181,0.927407,0.871619,1.00754,0.998694,1.08397
6368.64,0.447969,0.456745,1.47111,0.230841,0.230869,0.390066,0.460848,0.895921,0.932495,0.875237,1.00746,0.997375,1.08858
6350.31,0.448744,0.45391,1.48231,0.23048,0.232376,0.382504,0.4555462,0.897298,0.936124,0.880408,1.009,0.996468,1.0928
6331.99,0.444838,0.458152,1.47404,0.232332,0.233884,0.394186,0.458878,0.90415,0.941436,0.882494,1.01005,0.998325,1.09045
6313.67,0.441361,0.451055,1.46904,0.235485,0.23737,0.392663,0.46446,0.910529,0.944515,0.890785,1.00847,1.00129,1.09035
6295.34,0.443835,0.44743,1.48014,0.245916,0.244019,0.405238,0.467454,0.914846,0.946679,0.894486,1.01027,0.999396,1.09305
6277.02,0.436628,0.439876,1.49187,0.245157,0.247446,0.39981,0.469367,0.92102,0.953727,0.897645,1.00959,1.00198,1.09098
6258.7,0.428813,0.439389,1.48428,0.247173,0.24462,0.407907,0.475328,0.922544,0.956025,0.905124,1.00626,0.997785,1.09044
6240.38,0.428274,0.434082,1.47177,0.25946,0.257666,0.412727,0.479922,0.925333,0.957878,0.907938,1.00483,0.99576,1.08772
6222.05,0.415688,0.427589,1.48181,0.260827,0.258016,0.424246,0.485334,0.929477,0.958615,0.911803,1.00478,0.9960621,1.08555
6203.73,0.412163,0.41546,1.47059,0.260564,0.260932,0.416175,0.488551,0.93146,0.962646,0.912783,1.00681,0.997389,1.08939
6185.41,0.402826,0.41087,1.47008,0.264319,0.265695,0.420905,0.486649,0.932926,0.959574,0.915527,1.00654,0.995128,1.0903
6167.08,0.392368,0.400892,1.46088,0.266986,0.269342,0.422919,0.489208,0.932259,0.960096,0.915216,1.00873,0.996999,1.0917
6148.76,0.383889,0.394573,1.46573,0.260857,0.267624,0.419057,0.485433,0.931691,0.961687,0.915999,1.0099,0.998485,1.09543
6130.44,0.377806,0.384413,1.46675,0.261079,0.266327,0.420796,0.486771,0.932893,0.963075,0.915618,1.0118,1.00329,1.09596
6112.12,0.368865,0.375483,1.45675,0.261237,0.261589,0.416296,0.480559,0.93036,0.962632,0.915665,1.01321,1.00551,1.09911
6093.79,0.364285,0.368983,1.4537,0.256287,0.257288,0.418322,0.479871,0.930042,0.961462,0.915818,1.02083,1.00731,1.10191
6075.47,0.362079,0.365093,1.45617,0.251644,0.257582,0.413275,0.476794,0.927431,0.96129,0.912436,1.02133,1.01114,1.10743
6057.15,0.358458,0.365128,1.45767,0.24781,0.25194,0.408766,0.470236,0.928314,0.961771,0.910378,1.0231,1.01477,1.10872
6038.82,0.35738,0.365149,1.45628,0.23891,0.24475,0.402379,0.466463,0.928746,0.962364,0.911517,1.02786,1.01595,1.11182
6020.5,0.357296,0.360001,1.45795,0.234707,0.239225,0.399008,0.465236,0.930403,0.965821,0.915071,1.02974,1.01802,1.11647
6002.18,0.358023,0.36177,1.45782,0.227309,0.232095,0.392492,0.459824,0.933172,0.968427,0.916794,1.03347,1.02147,1.11496
5983.86,0.362651,0.365952,1.46183,0.224379,0.225521,0.385947,0.453812,0.935517,0.971768,0.917846,1.03362,1.02421,1.11693
5965.53,0.365075,0.370876,1.47139,0.221664,0.22292,0.38512,0.452797,0.939907,0.974919,0.921952,1.03459,1.02531,1.11787
5947.21,0.37033,0.373885,1.47224,0.215655,0.217972,0.380679,0.450424,0.943013,0.978558,0.927913,1.03736,1.02614,1.1203
5928.89,0.377102,0.37915,1.48158,0.213561,0.218418,0.386171,0.454773,0.947745,0.982724,0.930523,1.0363,1.02528,1.11975
5910.57,0.386159,0.383191,1.48819,0.211755,0.215462,0.38367,0.451666,0.952592,0.985707,0.9357,1.03661,1.02732,1.11752
5892.24,0.390822,0.392896,1.49757,0.213637,0.214821,0.38581,0.4499,0.956253,0.98866,0.939137,1.03707,1.02479,1.11777
5873.92,0.396201,0.399655,1.50952,0.214606,0.217171,0.389106,0.453724,0.961121,0.992037,0.944488,1.03645,1.02651,1.11895
5855.6,0.401899,0.403801,1.51121,0.217972,0.218041,0.391687,0.457777,0.9630723,0.995821,0.947473,1.03507,1.02507,1.11898
5837.27,0.40566,0.408648,1.5194,0.219061,0.22111,0.394166,0.458546,0.965111,0.995653,0.949599,1.03438,1.02474,1.121
5818.95,0.413481,0.41552,1.52109,0.226332,0.223928,0.396603,0.461713,0.965925,0.998059,0.950025,1.03645,1.02513,1.12225
5800.63,0.419704,0.422911,1.5318,0.228128,0.226782,0.398308,0.4645,0.965958,0.999834,0.953536,1.03978,1.02731,1.12178
5782.31,0.421515,0.425863,1.53703,0.229807,0.230272,0.399524,0.464522,0.965375,0.998219,0.951302,1.03855,1.02959,1.12515
5763.98,0.421904,0.425821,1.53918,0.231869,0.230151,0.404093,0.465125,0.965531,0.998195,0.953111,1.04256,1.03104,1.12696
5745.66,0.424225,0.431134,1.5408,0.233489,0.234552,0.40661,0.47019,0.964921,0.997159,0.951812,1.04672,1.03425,1.13177
5727.34,0.42112,0.42884,1.54111,0.235286,0.23444,0.404099,0.469271,0.961692,0.99672,0.951325,1.04964,1.03812,1.13526
5709.01,0.419764,0.425672,1.54201,0.232754,0.233104,0.403981,0.468859,0.960497,0.994683,0.948812,1.05254,1.04357,1.13573
5690.69,0.417316,0.427,1.54067,0.232524,0.233582,0.405097,0.4692792,0.958699,0.996504,0.948552,1.059,1.04385,1.14186
5672.37,0.411841,0.420946,1.53852,0.228047,0.230348,0.400681,0.464282,0.957568,0.99513,0.945225,1.06061,1.04824,1.14586
5654.05,0.405188,0.415595,1.53865,0.224164,0.226984,0.395336,0.463405,0.958461,0.996238,0.94564,1.06364,1.05234,1.14874
5635.72,0.399632,0.410882,1.53634,0.22007,0.222687,0.396943,0.458103,0.958034,0.996063,0.945782,1.06659,1.05429,1.14964
5617.4,0.392079,0.400915,1.53081,0.214096,0.215822,0.390716,0.454894,0.960078,0.9994,0.94718,1.06728,1.0557,1.15082
5599.08,0.38483,0.394826,1.52829,0.210859,0.213315,0.385077,0.450571,0.962444,0.999894,0.950406,1.06999,1.05639,1.15113
5580.75,0.375975,0.383027,1.52487,0.202916,0.206843,0.381164,0.446113,0.965697,1.00448,0.952428,1.07025,1.05934,1.15285
5562.43,0.366922,0.37559,1.5173,0.196345,0.19897,0.377322,0.442558,0.969337,1.00723,0.955387,1.07024,1.05893,1.15416
5544.11,0.359273,0.369578,1.51854,0.195576,0.198009,0.376362,0.439091,0.973528,1.00992,0.959736,1.07013,1.059,1.151
5525.79,0.3529,0.361224,1.50849,0.192503,0.193814,0.373946,0.438472,0.977161,1.01297,0.963534,1.06914,1.05862,1.15155
5507.46,0.34608,0.356774,1.50341,0.194399,0.197365,0.371578,0.437094,0.980547,1.0168,0.966824,1.06409,1.05248,1.14649
5489.14,0.340794,0.35026,1.5005,0.194032,0.195814,0.375633,0.440609,0.980686,1.01443,0.96623,1.06608,1.05635,1.14505
5470.82,0.337961,0.343864,1.5032,0.191592,0.19157,0.373753,0.442508,0.983797,1.01808,0.970895,1.06655,1.05453,1.14944
5452.49,0.335037,0.342076,1.50094,0.195428,0.194594,0.379843,0.44396,0.986126,1.0206,0.97367,1.06667,1.05613,1.14925
5434.17,0.333406,0.340734,1.50725,0.203238,0.202988,0.381624,0.450415,0.993242,1.02826,0.979812,1.06731,1.0563,1.14954
5415.85,0.334067,0.337832,1.50463,0.202602,0.201164,0.385954,0.452781,0.986288,1.01967,0.973557,1.06852,1.05664,1.15113
5397.53,0.334636,0.341634,1.49737,0.205635,0.205981,0.389468,0.454919,0.981025,1.01619,0.969175,1.06507,1.05276,1.14954
5379.2,0.337214,0.342267,1.51323,0.209562,0.209246,0.393367,0.459703,0.98674,1.02164,0.975412,1.07474,1.06146,1.15778
5360.88,0.345908,0.349554,1.51338,0.216201,0.215789,0.400296,0.463928,0.983983,1.02012,0.972839,1.07744,1.06379,1.16032
5342.56,0.346298,0.350975,1.52023,0.213836,0.214691,0.403887,0.467052,0.984686,1.02278,0.972615,1.08841,1.07406,1.17139
5324.23,0.354575,0.356774,1.52289,0.217607,0.217312,0.400649,0.466926,0.979192,1.01679,0.969313,1.08378,1.06901,1.16641
5305.91,0.360989,0.363233,1.53552,0.216875,0.217243,0.405499,0.471395,0.984847,1.02388,0.974526,1.09609,1.08062,1.17801
5287.59,0.364874,0.369431,1.53797,0.216068,0.216996,0.403511,0.466427,0.979984,1.01821,0.969867,1.09364,1.07922,1.17627
5269.27,0.375181,0.380017,1.54325,0.21941,0.219692,0.402404,0.465081,0.979103,1.01878,0.969883,1.08825,1.07453,1.17123
5250.94,0.378648,0.382631,1.5556,0.215767,0.216822,0.400481,0.464374,0.984391,1.02316,0.973935,1.09717,1.0841,1.18018
5232.62,0.382747,0.388784,1.5602,0.21249,0.215044,0.399382,0.463492,0.989068,1.02651,0.976044,1.10189,1.08869,1.18561
5214.3,0.387299,0.391856,1.56815,0.208305,0.209657,0.397312,0.458734,0.992089,1.03015,0.980722,1.1033,1.08872,1.18419
5195.97,0.391238,0.395414,1.5729,0.205643,0.208981,0.395813,0.458698,1.0006,1.03752,0.987282,1.10776,1.09352,1.18739
5177.65,0.392168,0.399729,1.57283,0.201868,0.20443,0.392271,0.454451,1.00155,1.03886,0.989117,1.10404,1.09063,1.18571
5159.33,0.392558,0.399712,1.58053,0.196429,0.198868,0.38687,0.450715,1.00617,1.0431,0.994312,1.10442,1.09072,1.18423
5141.01,0.391317,0.397884,1.58139,0.192741,0.194957,0.383219,0.447488,1.01088,1.04728,0.99921,1.10411,1.09056,1.1839
5122.68,0.388477,0.395614,1.57831,0.187114,0.189073,0.381097,0.44537,1.01302,1.04843,1.00131,1.10131,1.08799,1.18205
5104.36,0.385455,0.392154,1.57896,0.187456,0.188541,0.381352,0.443994,1.01559,1.05096,1.00434,1.0989,1.08719,1.18023
5086.04,0.38031,0.387977,1.57744,0.186518,0.185761,0.380813,0.443993,1.01775,1.05242,1.0078,1.09687,1.08491,1.17834
5067.71,0.372852,0.380108,1.57428,0.185142,0.18594,0.381103,0.445932,1.01876,1.05369,1.00881,1.09596,1.08306,1.17733
5049.39,0.365966,0.373724,1.57062,0.187361,0.187669,0.384304,0.448265,1.01937,1.05499,1.00935,1.09407,1.08122,1.17558
5031.07,0.358985,0.366619,1.56617,0.193228,0.191059,0.386853,0.453072,1.01901,1.05429,1.01079,1.09378,1.08086,1.17502
5012.75,0.350132,0.359087,1.56077,0.196015,0.193176,0.389592,0.456076,1.01775,1.05277,1.00984,1.09305,1.07986,1.17498
4994.42,0.34104,0.349173,1.55565,0.200409,0.198085,0.39598,0.459227,1.01685,1.0523,1.00864,1.09454,1.0807,1.17694
4976.1,0.333246,0.340629,1.55208,0.205585,0.2043,0.402609,0.465221,1.01411,1.05024,1.00666,1.09555,1.08137,1.17833
4957.78,0.324644,0.332313,1.54578,0.21011,0.208285,0.404174,0.468213,1.01237,1.04921,1.00465,1.09739,1.08296,1.18039
4939.45,0.316603,0.323236,1.54336,0.214185,0.21288,0.40931,0.473931,1.01074,1.04841,1.00393,1.10155,1.08544,1.18316
4921.13,0.309793,0.315177,1.53458,0.21679,0.215806,0.413248,0.475912,1.00925,1.0479,1.00237,1.1042,1.08809,1.18605
4902.81,0.304168,0.310707,1.53142,0.221191,0.22016,0.416517,0.480902,1.00867,1.04747,1.00202,1.1076,1.09215,1.18886
4884.49,0.298394,0.303593,1.52759,0.221003,0.220625,0.417146,0.4807,1.00951,1.04814,1.00141,1.11052,1.09538,1.19188
4866.16,0.295724,0.302316,1.52882,0.223166,0.222861,0.419386,0.481958,1.01126,1.05034,1.00244,1.11418,1.09756,1.19499
4847.84,0.294795,0.299529,1.52586,0.223025,0.222598,0.420111,0.480224,1.01344,1.05231,1.00535,1.11632,1.10021,1.196401
4829.52,0.294504,0.298989,1.52622,0.221502,0.222063,0.418394,0.482209,1.01637,1.05542,1.00746,1.11741,1.10231,1.19768
4811.19,0.296156,0.299458,1.52762,0.219982,0.220945,0.417334,0.479743,1.01989,1.05847,1.0115,1.11792,1.10307,1.19755
4792.87,0.297208,0.300657,1.53043,0.215921,0.216557,0.414691,0.476752,1.0238,1.06213,1.01514,1.11928,1.1039,1.19821
4774.55,0.301672,0.30439,1.5321,0.211552,0.212224,0.411461,0.471623,1.02757,1.06569,1.01945,1.11777,1.10396,1.19758
4756.23,0.304506,0.306831,1.536,0.205266,0.206648,0.407005,0.46903,1.03119,1.0689,1.02285,1.11671,1.10216,1.1963
4737.9,0.30926,0.311798,1.54144,0.200726,0.202238,0.402825,0.465549,1.03374,1.07101,1.0253,1.1152,1.10081,1.19508
4719.58,0.314546,0.317401,1.54748,0.195098,0.196783,0.398062,0.460614,1.03584,1.07341,1.02841,1.11439,1.09962,1.19302
4701.26,0.322973,0.325264,1.55437,0.190303,0.191481,0.394606,0.457405,1.03756,1.0748,1.0298,1.11206,1.09813,1.19253
4682.93,0.327153,0.330697,1.56135,0.185121,0.186048,0.390579,0.45345,1.03804,1.07508,1.03077,1.11109,1.0975,1.18992
4664.61,0.332763,0.336557,1.5668,0.181162,0.182387,0.386108,0.449693,1.03809,1.07566,1.03097,1.11031,1.09617,1.18978
4646.29,0.337952,0.341277,1.57535,0.178685,0.179072,0.384801,0.447599,1.03712,1.07504,1.03134,1.10957,1.09531,1.1893
4627.97,0.346309,0.34952,1.58078,0.17786,0.177769,0.38499,0.448834,1.03577,1.07321,1.02983,1.11031,1.0953,1.1902
4609.64,0.348287,0.352768,1.5878,0.177434,0.176401,0.384958,0.448496,1.03317,1.07232,1.02838,1.11186,1.09622,1.1928
4591.32,0.352852,0.356142,1.59159,0.179038,0.177744,0.386365,0.450702,1.03082,1.06992,1.02565,1.11436,1.09855,1.19489
4573,0.355335,0.359453,1.59588,0.182348,0.180498,0.390282,0.453576,1.02829,1.06807,1.02382,1.11715,1.10073,1.19727
4554.67,0.355073,0.359514,1.59549,0.186048,0.184039,0.393614,0.456306,1.02645,1.06663,1.02155,1.1204,1.10385,1.20076
4536.35,0.353654,0.359173,1.60063,0.189955,0.188532,0.39802,0.460929,1.0249,1.0657,1.01942,1.12406,1.10778,1.2044
4518.03,0.351138,0.357006,1.59789,0.194046,0.191381,0.402558,0.464997,1.02414,1.06472,1.01863,1.12807,1.11069,1.20735
4499.71,0.346855,0.352876,1.59678,0.197214,0.195902,0.406073,0.468361,1.02455,1.06552,1.01878,1.13141,1.11436,1.21074
4481.38,0.342006,0.347918,1.59414,0.200504,0.199149,0.408729,0.470882,1.02594,1.06704,1.01976,1.13413,1.11774,1.2129
4463.06,0.334779,0.341634,1.58908,0.203082,0.201621,0.410923,0.473424,1.02831,1.06878,1.02207,1.13658,1.12007,1.2155
4444.74,0.327303,0.334629,1.58459,0.20491,0.20372,0.413791,0.475191,1.03107,1.07215,1.02462,1.13871,1.12192,1.21721
4426.41,0.320253,0.327312,1.58054,0.205964,0.204979,0.413952,0.47648,1.03484,1.07467,1.0282,1.13981,1.12327,1.21792
4408.09,0.312166,0.31922,1.57376,0.206551,0.206138,0.414923,0.476169,1.0385,1.07856,1.03193,1.14078,1.12382,1.21773
4389.77,0.302469,0.310086,1.56766,0.204146,0.203963,0.413719,0.474914,1.04203,1.08067,1.03555,1.1398,1.12388,1.21698
4371.45,0.294349,0.301119,1.56222,0.201403,0.202178,0.411146,0.472377,1.04496,1.08432,1.03888,1.13886,1.12349,1.2158
4353.12,0.28582,0.292468,1.55599,0.199157,0.1989,0.409236,0.470298,1.04794,1.0861,1.04165,1.13756,1.12212,1.21459
4334.8,0.277914,0.283825,1.55081,0.194206,0.194636,0.404971,0.465615,1.04938,1.08835,1.04374,1.13586,1.12066,1.2135
4316.48,0.271004,0.277144,1.54548,0.189953,0.190563,0.40172,0.462573,1.05029,1.08924,1.04473,1.13388,1.11844,1.21101
4298.15,0.265032,0.270658,1.54093,0.183584,0.184885,0.396871,0.457719,1.05011,1.08937,1.04563,1.13177,1.11702,1.20885
4279.83,0.260616,0.266662,1.53847,0.177385,0.17838,0.391162,0.453175,1.04994,1.08885,1.04559,1.13077,1.11538,1.20841
4261.51,0.25751,0.262181,1.53721,0.171791,0.171921,0.386487,0.44725,1.04879,1.08784,1.04454,1.13054,1.11472,1.20795
4243.19,0.256044,0.260732,1.53559,0.165421,0.166009,0.381974,0.443394,1.04693,1.08654,1.04313,1.13062,1.11458,1.20803
4224.86,0.256515,0.260581,1.5366,0.160338,0.160873,0.377116,0.438769,1.04478,1.08462,1.04114,1.13133,1.11518,1.20945
4206.54,0.257815,0.261835,1.53924,0.156254,0.156245,0.374442,0.436283,1.04238,1.08302,1.03891,1.13369,1.11662,1.21131
4188.22,0.261253,0.26491,1.54199,0.15378,0.15382,0.371809,0.434807,1.04048,1.08127,1.0369,1.13644,1.11945,1.21378
4169.89,0.265026,0.268559,1.54791,0.152274,0.151501,0.372717,0.433617,1.03866,1.08014,1.03543,1.14012,1.12258,1.21812
4151.57,0.270727,0.27325,1.55273,0.15271,0.151875,0.372648,0.434453,1.03788,1.07952,1.03412,1.14379,1.12642,1.22132
4133.25,0.275867,0.279324,1.5586,0.154882,0.153097,0.373945,0.436101,1.03807,1.08014,1.03342,1.14802,1.13008,1.22483
4114.93,0.282081,0.284947,1.56492,0.156482,0.154629,0.376511,0.438856,1.03938,1.0813,1.03511,1.15213,1.13389,1.22871
4096.6,0.288413,0.291686,1.57184,0.159985,0.157963,0.379871,0.442012,1.04159,1.08387,1.03715,1.15542,1.13795,1.23196
4078.28,0.293912,0.297419,1.5785,0.163891,0.161845,0.383917,0.445913,1.04438,1.08618,1.03876,1.15863,1.14105,1.23501
4059.96,0.300017,0.303758,1.58635,0.167996,0.166712,0.387693,0.448913,1.04861,1.08998,1.04287,1.16071,1.14339,1.23617
4041.63,0.304131,0.306912,1.5922,0.170482,0.167902,0.389722,0.451387,1.05154,1.09297,1.04665,1.16213,1.14523,1.23695
4023.31,0.307592,0.310477,1.59637,0.172359,0.170381,0.392727,0.453791,1.05514,1.09577,1.04969,1.16286,1.14608,1.23761
4004.99,0.31096,0.315281,1.60096,0.175628,0.174073,0.395732,0.456429,1.05929,1.10016,1.05382,1.16309,1.14644,1.23695
3986.67,0.311765,0.316512,1.60394,0.175542,0.174771,0.396577,0.457035,1.06201,1.10293,1.05748,1.16269,1.14605,1.23662
3968.34,0.312576,0.318214,1.60669,0.175865,0.17569,0.397213,0.457433,1.06537,1.10576,1.06043,1.16169,1.1454,1.23472
3950.02,0.312019,0.318916,1.60741,0.176437,0.176068,0.396364,0.455669,1.06656,1.10699,1.06174,1.15708,1.14231,1.23052
3931.7,0.310636,0.319793,1.60924,0.177571,0.180898,0.397139,0.456027,1.06994,1.1086,1.06235,1.15749,1.14251,1.22964
3913.37,0.304773,0.310686,1.60386,0.169853,0.169728,0.391962,0.451323,1.06484,1.10538,1.061,1.154,1.13832,1.22678
3895.05,0.300083,0.307748,1.60281,0.168998,0.170528,0.389313,0.448931,1.06541,1.1049,1.0592,1.15178,1.13686,1.22442
3876.73,0.293774,0.301256,1.59958,0.163936,0.165912,0.385551,0.444785,1.0643,1.10363,1.05819,1.15064,1.13511,1.22283
3858.41,0.286678,0.295652,1.59457,0.161824,0.164936,0.382198,0.441464,1.0609,1.10056,1.05372,1.14938,1.13423,1.22121
3840.08,0.278799,0.287095,1.59248,0.150111,0.156522,0.380258,0.440202,1.06362,1.10324,1.06215,1.14998,1.13381,1.22309
3821.76,0.26818,0.27336,1.58637,0.143041,0.143607,0.371595,0.434339,1.05494,1.09953,1.06028,1.15353,1.13651,1.22806
3803.44,0.260267,0.268468,1.57875,0.144473,0.147791,0.370042,0.432194,1.05601,1.09649,1.05397,1.15368,1.13755,1.22603
3785.11,0.250821,0.257241,1.56595,0.138585,0.13804,0.36598,0.426159,1.04935,1.09267,1.04809,1.15308,1.13529,1.22644
3766.79,0.241916,0.249381,1.55813,0.140238,0.141558,0.364792,0.425274,1.04712,1.08889,1.04283,1.15552,1.13815,1.22814
3748.47,0.234728,0.242984,1.54949,0.135611,0.140042,0.368048,0.428575,1.04202,1.08612,1.03871,1.15566,1.13613,1.22681
3730.15,0.225723,0.237288,1.54677,0.149939,0.152593,0.369105,0.43072,1.04243,1.087,1.02761,1.16083,1.14366,1.23337
3711.82,0.22007,0.228415,1.55102,0.144709,0.145455,0.370626,0.430268,1.05347,1.09906,1.04811,1.1679,1.1508,1.2394
3693.5,0.214209,0.222967,1.54555,0.15222,0.152667,0.373379,0.433006,1.05499,1.09901,1.04486,1.17023,1.15387,1.24137
3675.18,0.205508,0.209568,1.53771,0.143563,0.14212,0.377343,0.438669,1.04798,1.09909,1.05108,1.17479,1.15685,1.24773
3656.85,0.206711,0.212385,1.53868,0.154995,0.152636,0.379263,0.439794,1.06083,1.10714,1.05716,1.17335,1.15654,1.24567
3638.53,0.207704,0.213186,1.54024,0.160903,0.159054,0.383812,0.444288,1.06309,1.10934,1.0561,1.17262,1.15573,1.24467
3620.21,0.208374,0.215162,1.54876,0.168005,0.169445,0.389047,0.451013,1.07122,1.11668,1.06277,1.17605,1.16014,1.24782
3601.89,0.210605,0.216779,1.55188,0.17197,0.171936,0.391733,0.452757,1.07148,1.11868,1.06212,1.17275,1.15697,1.24604
3583.56,0.213529,0.217101,1.55234,0.170101,0.168767,0.392063,0.454452,1.07107,1.11933,1.06467,1.1677,1.15062,1.24031
3565.24,0.218451,0.2233,1.56204,0.1680765,0.172001,0.397804,0.459742,1.07086,1.11894,1.06591,1.1643,1.1481,1.23744
3546.92,0.224339,0.231948,1.57944,0.177743,0.179558,0.395975,0.456639,1.07931,1.12842,1.07054,1.16592,1.15114,1.23939
3528.59,0.230152,0.232336,1.59239,0.167368,0.167275,0.393954,0.45646,1.07846,1.12992,1.07666,1.16334,1.14731,1.23924
3510.27,0.235335,0.238189,1.60657,0.169064,0.169529,0.391471,0.456159,1.07682,1.13033,1.07431,1.1622,1.14658,1.23889
3491.95,0.241212,0.242869,1.62089,0.163576,0.162058,0.388468,0.453382,1.0757,1.13333,1.07558,1.15921,1.14241,1.23718
3473.63,0.247316,0.248047,1.63946,0.159087,0.158318,0.385105,0.451447,1.07437,1.13563,1.07498,1.15819,1.1411,1.23719
3455.3,0.252491,0.253718,1.66075,0.155615,0.154326,0.38067,0.448155,1.07281,1.13941,1.07371,1.15877,1.14128,1.23862
3436.98,0.254566,0.255975,1.68413,0.150128,0.148437,0.376297,0.443435,1.07148,1.1453,1.07171,1.15992,1.1423,1.24074
3418.66,0.259702,0.261573,1.71537,0.14478,0.143739,0.370919,0.439079,1.06904,1.15225,1.06928,1.16127,1.14337,1.24256
3400.33,0.260187,0.26177,1.74019,0.138813,0.137857,0.365689,0.434448,1.0695,1.16251,1.0698,1.16508,1.14654,1.24643
3382.01,0.263433,0.265128,1.76673,0.133672,0.132303,0.361173,0.430269,1.06984,1.17086,1.07012,1.16837,1.15008,1.25072
3363.69,0.262691,0.264673,1.78244,0.128442,0.127073,0.357323,0.426924,1.0714,1.17869,1.07123,1.17218,1.15391,1.25457
3345.37,0.261414,0.263733,1.79382,0.125226,0.12312,0.354577,0.42402,1.074,1.18427,1.0741,1.17656,1.15764,1.25836
3327.04,0.257485,0.2608,1.8012,0.123853,0.122028,0.35329,0.423244,1.07736,1.18942,1.07617,1.17954,1.16135,1.26082
3308.72,0.2515,0.254828,1.81151,0.123729,0.120852,0.352734,0.422521,1.08016,1.19609,1.0791,1.18281,1.16431,1.26357
3290.4,0.247361,0.250462,1.83777,0.122934,0.120421,0.35454,0.424841,1.08461,1.20497,1.08385,1.18596,1.16737,1.26651
3272.07,0.239321,0.242592,1.86464,0.125593,0.122806,0.35731,0.427417,1.08761,1.21373,1.08676,1.1876,1.16866,1.2678
3253.75,0.233335,0.236995,1.91703,0.129309,0.126449,0.361433,0.431817,1.09191,1.22746,1.09107,1.18897,1.17039,1.26901
3235.43,0.223762,0.227417,1.99405,0.133178,0.130028,0.365954,0.435957,1.09411,1.244,1.0938,1.18944,1.17103,1.26893
3217.11,0.214748,0.21831,2.046,0.137449,0.13444,0.370146,0.440498,1.09597,1.25438,1.09605,1.18905,1.17099,1.26891
3198.78,0.205156,0.209213,1.99433,0.142558,0.139668,0.375721,0.44488,1.09713,1.24616,1.09694,1.18886,1.17113,1.26823
3180.46,0.195818,0.198864,1.94137,0.146366,0.143103,0.379424,0.448533,1.09764,1.23729,1.09801,1.18682,1.16873,1.26549
3162.14,0.186367,0.189693,1.91643,0.149949,0.146856,0.383938,0.452294,1.09693,1.23331,1.09757,1.18508,1.16733,1.26319
3143.81,0.1777592,0.181003,1.90251,0.153213,0.150178,0.386958,0.455096,1.09556,1.23214,1.09648,1.1833,1.16547,1.26069
3125.49,0.170035,0.173204,1.86348,0.155527,0.152853,0.389534,0.45706,1.09303,1.22543,1.0939,1.18159,1.16379,1.25804
3107.17,0.163657,0.166477,1.77676,0.156636,0.154021,0.39047,0.457724,1.09106,1.20837,1.09177,1.17968,1.16196,1.25582
3088.85,0.158346,0.160687,1.67783,0.155673,0.153583,0.389488,0.455889,1.08836,1.18305,1.08961,1.17939,1.16093,1.25436
3070.52,0.154718,0.1561,1.6101,0.152968,0.150897,0.380602,0.44688,1.08579,1.1627,1.08703,1.1791,1.16073,1.25374
3052.2,0.152819,0.154263,1.57192,0.151159,0.149149,0.379425,0.445409,1.08373,1.15035,1.0845,1.18019,1.16151,1.25415
3033.88,0.153252,0.155244,1.55018,0.14903,0.147322,0.380209,0.446181,1.08192,1.14179,1.08189,1.18202,1.16301,1.25507
3015.56,0.155353,0.157136,1.53755,0.144071,0.142741,0.373437,0.438405,1.08141,1.13609,1.08157,1.18564,1.16635,1.25773
2997.23,0.158505,0.159811,1.53252,0.138431,0.137363,0.368095,0.432315,1.08263,1.13407,1.08258,1.18931,1.16985,1.26135
2978.91,0.1638,0.165293,1.52888,0.133005,0.131888,0.351643,0.415454,1.08511,1.13288,1.08499,1.19315,1.17347,1.26325
2960.59,0.177059,0.177134,1.53486,0.126937,0.125667,0.318522,0.382875,1.09442,1.13969,1.09449,1.19705,1.178,1.26429
2942.26,0.189843,0.190766,1.54245,0.121837,0.120572,0.318751,0.382495,1.09649,1.13868,1.09568,1.20653,1.18718,1.2717
2923.94,0.212705,0.210646,1.56649,0.118304,0.116614,0.290625,0.353994,1.10526,1.14756,1.10393,1.21281,1.19269,1.27508
2905.62,0.195263,0.195475,1.55317,0.11022,0.108267,0.315042,0.378763,1.09962,1.14264,1.09919,1.20985,1.19028,1.2773
2887.3,0.193299,0.19441,1.54999,0.104971,0.103058,0.323942,0.388238,1.09924,1.14163,1.09898,1.21077,1.19138,1.27962
2868.97,0.200582,0.201997,1.55606,0.102499,0.100352,0.319202,0.383163,1.10263,1.1451,1.1028,1.21435,1.19511,1.28144
2850.65,0.213138,0.211096,1.57742,0.102051,0.0987708,0.307073,0.370857,1.10709,1.15126,1.10685,1.21764,1.19777,1.28357
2832.33,0.200264,0.20185,1.55878,0.101079,0.0985572,0.335201,0.399036,1.1019,1.14564,1.10254,1.21399,1.19501,1.28316
2814,0.200676,0.202981,1.56041,0.1026517,0.100252,0.340656,0.404375,1.10184,1.14591,1.10273,1.21434,1.19543,1.28272
2795.68,0.201477,0.203973,1.56311,0.105693,0.102788,0.344866,0.408461,1.10117,1.14632,1.10214,1.21421,1.19507,1.28232
2777.36,0.200732,0.203642,1.56512,0.109549,0.106656,0.349741,0.412977,1.10046,1.14618,1.10169,1.21379,1.1949,1.28121
2759.04,0.199031,0.201745,1.56607,0.113205,0.110326,0.353621,0.416771,1.09895,1.14514,1.10046,1.21318,1.19448,1.28064
2740.71,0.195806,0.198702,1.56503,0.116628,0.113794,0.356864,0.420025,1.09718,1.14401,1.09864,1.21311,1.19412,1.28022
2722.39,0.191576,0.195122,1.56339,0.120427,0.117643,0.360537,0.422984,1.0949,1.14205,1.09634,1.21276,1.19373,1.27991
2704.07,0.185442,0.189242,1.55989,0.122867,0.120408,0.363489,0.425613,1.09309,1.14019,1.09492,1.21326,1.1945,1.28046
2685.74,0.179177,0.18259,1.55564,0.124805,0.122418,0.365317,0.427322,1.09136,1.13828,1.09279,1.2148,1.19545,1.28154
2667.42,0.171246,0.175056,1.55025,0.125367,0.123222,0.365806,0.42777,1.09016,1.13657,1.09156,1.21666,1.19711,1.28304
2649.1,0.16223,0.165939,1.54371,0.124843,0.122656,0.365657,0.426712,1.08956,1.13534,1.0907,1.21948,1.19977,1.28584
2630.78,0.152402,0.156145,1.53656,0.123055,0.121189,0.363905,0.425005,1.08981,1.13477,1.09072,1.22239,1.20245,1.28867
2612.45,0.142681,0.146375,1.5282,0.12052,0.118863,0.361241,0.422217,1.09071,1.13491,1.09174,1.22582,1.206,1.29222
2594.13,0.132627,0.136474,1.51988,0.117031,0.115376,0.357963,0.41902,1.0923,1.13561,1.09329,1.22987,1.20963,1.29556
2575.81,0.122816,0.12671,1.51179,0.112248,0.110628,0.353931,0.414397,1.0946,1.13729,1.09532,1.23376,1.21335,1.29946
2557.48,0.113741,0.11713,1.5035,0.107535,0.105884,0.349182,0.409733,1.09685,1.13891,1.09773,1.2374,1.2174,1.30273
2539.16,0.105237,0.108384,1.49557,0.101851,0.100248,0.343621,0.404024,1.09939,1.1411,1.1001,1.24137,1.22126,1.30621
2520.84,0.0979441,0.101063,1.48901,0.09663868,0.0950348,0.338526,0.399065,1.10172,1.14332,1.10235,1.2441,1.22432,1.30905
2502.52,0.09170974,0.0948715,1.48274,0.0914095,0.0900191,0.33407,0.394412,1.10379,1.14562,1.10469,1.24734,1.22747,1.31138
2484.19,0.0872843,0.08994434,1.47824,0.08758568,0.085859,0.3301875,0.390547,1.10556,1.14754,1.1064,1.24962,1.23012,1.31362
2465.87,0.0845922,0.0868988,1.47491,0.0846407,0.08264491,0.327442,0.38796,1.10671,1.14927,1.10789,1.25194,1.2323,1.31503
2447.55,0.0837474,0.0857947,1.47333,0.0833,0.0813613,0.325881,0.386354,1.10796,1.15069,1.10913,1.25336,1.23392,1.31631
2429.22,0.0843482,0.0865292,1.4735,0.0837768,0.0815055,0.325598,0.386361,1.10873,1.152,1.10982,1.25487,1.23527,1.31719
2410.9,0.0868324,0.0887829,1.47501,0.0857048,0.0834824,0.327455,0.388211,1.10949,1.15313,1.11055,1.25602,1.23694,1.31815
2392.58,0.0904459,0.0921758,1.47816,0.0890164,0.0865939,0.330454,0.390925,1.11044,1.15464,1.11137,1.25729,1.23807,1.31918
2374.26,0.09791778,0.139677,1.51086,0.20441,0.212306,0.348992,0.41703,1.09954,1.1488,1.01474,1.27203,1.26727,1.33822
2355.93,0.103717,0.185494,1.53211,0.321309,0.336807,0.367952,0.44837,1.08249,1.14061,0.913894,1.27552,1.28123,1.34742
2337.61,0.1065825,0.169165,1.532,0.272646,0.283744,0.366659,0.439732,1.10655,1.16157,0.980751,1.27607,1.27509,1.34509
2319.29,0.121311,0.167256,1.51347,0.234386,0.243912,0.359807,0.423901,1.1186,1.16606,1.0255,1.26798,1.26311,1.32849
2300.96,0.122991,0.140965,1.51252,0.157952,0.160823,0.355477,0.415942,1.1167,1.1622,1.08218,1.27232,1.25912,1.33237
2282.64,0.126111,0.129692,1.51419,0.120696,0.119063,0.355125,0.414376,1.12644,1.17196,1.12255,1.27429,1.25527,1.33485
2264.32,0.130031,0.1338,1.5226,0.121954,0.120322,0.357368,0.416741,1.13042,1.17669,1.12652,1.27905,1.25999,1.33967
2246,0.135162,0.138081,1.5243,0.120602,0.118853,0.357233,0.41609,1.13629,1.18184,1.13516,1.28202,1.26244,1.34171
2227.67,0.138088,0.140554,1.52699,0.119008,0.11707,0.357373,0.415983,1.14116,1.1871,1.14135,1.28548,1.26588,1.34517
2209.35,0.139831,0.142382,1.52916,0.117636,0.116178,0.356075,0.414313,1.14573,1.19161,1.14603,1.28939,1.2693,1.34836
2191.03,0.140372,0.142985,1.52953,0.115363,0.113619,0.353873,0.412008,1.14986,1.19581,1.15031,1.29258,1.27301,1.35119
2172.7,0.139553,0.142413,1.52843,0.112458,0.11074,0.350672,0.408329,1.15376,1.19987,1.1539,1.2956,1.27605,1.35422
2154.38,0.136816,0.140046,1.52598,0.108074,0.106908,0.345948,0.403545,1.15691,1.20308,1.15731,1.29824,1.27867,1.35645
2136.06,0.133736,0.137448,1.52198,0.104693,0.103535,0.341269,0.399037,1.15967,1.20614,1.15875,1.30022,1.2812,1.35773
2117.74,0.128302,0.131868,1.51708,0.0984255,0.0972443,0.336316,0.393805,1.16157,1.20838,1.16211,1.30241,1.28264,1.35962
2099.41,0.121729,0.12549,1.51053,0.0932707,0.092235,0.330582,0.388103,1.16305,1.21028,1.16337,1.30306,1.28408,1.36014
2081.09,0.114688,0.118211,1.50382,0.08889509,0.0876168,0.326057,0.383417,1.16459,1.21156,1.16488,1.30419,1.28499,1.36113
2062.77,0.106242,0.110299,1.49476,0.0852657,0.084063,0.321842,0.379321,1.16564,1.21284,1.16602,1.30452,1.28557,1.36095
2044.44,0.0971199,0.10148,1.48638,0.0829009,0.0817009,0.319201,0.376092,1.16616,1.21344,1.16598,1.30558,1.28654,1.36184
2026.12,0.08758153,0.0915268,1.47736,0.0813507,0.0799904,0.317748,0.374752,1.16687,1.21397,1.1671,1.30642,1.28735,1.36259
2007.8,0.0781124,0.08292859,1.46713,0.0822866,0.0808967,0.317428,0.374305,1.16753,1.21475,1.16715,1.30727,1.28786,1.36294
1989.48,0.0694059,0.0740904,1.45801,0.0838506,0.0831019,0.318637,0.375189,1.1704,1.21619,1.1699,1.30879,1.28974,1.3637
1971.15,0.0602963,0.06463246,1.44923,0.0861959,0.0847282,0.320788,0.377371,1.16953,1.21623,1.16974,1.31022,1.29103,1.3657
1952.83,0.0528438,0.0573773,1.44075,0.0901865,0.0887059,0.323376,0.379882,1.17139,1.21751,1.17133,1.31226,1.29285,1.36729
1934.51,0.0467142,0.0508784,1.43502,0.0947738,0.0932158,0.327895,0.384629,1.1734,1.21969,1.17325,1.31485,1.29594,1.36986
1916.18,0.0444321,0.0492015,1.42519,0.10099,0.101262,0.332193,0.38792,1.17761,1.22195,1.17626,1.31517,1.29568,1.36857
1897.86,0.0394513,0.0439359,1.42645,0.103686,0.102315,0.335367,0.390958,1.179,1.22506,1.17859,1.32238,1.30323,1.37681
1879.54,0.0394862,0.04406235,1.42502,0.108642,0.107572,0.339812,0.394665,1.18294,1.22866,1.18197,1.32747,1.3084,1.38189
1861.22,0.0409513,0.0459808,1.42578,0.111865,0.111485,0.34292,0.397426,1.18728,1.23311,1.18551,1.33318,1.31437,1.38745
1842.89,0.0487127,0.0557038,1.42185,0.118661,0.123535,0.347419,0.403432,1.1922,1.23612,1.18988,1.3353,1.31575,1.38707
1824.57,0.0460247,0.0520004,1.4326,0.112479,0.113669,0.346888,0.402172,1.19497,1.24154,1.19544,1.34718,1.32757,1.40132
1806.25,0.0608932,0.0663387,1.44008,0.117753,0.117783,0.345618,0.399448,1.2064,1.25179,1.20448,1.35465,1.33551,1.40778
1787.92,0.0712164,0.07807368,1.44775,0.119878,0.120822,0.344759,0.397974,1.2143,1.25943,1.21077,1.36353,1.34426,1.41559
1769.6,0.0828156,0.09203,1.45486,0.121982,0.127652,0.342808,0.39669,1.22494,1.26831,1.21938,1.37233,1.35295,1.42218
1751.28,0.0898994,0.102355,1.47679,0.123694,0.129138,0.340527,0.393376,1.22702,1.2711,1.21907,1.38887,1.37086,1.44091
1732.96,0.101963,0.112261,1.48794,0.114702,0.121794,0.325719,0.38254,1.21931,1.26603,1.22009,1.39631,1.37652,1.4482
1714.63,0.137417,0.146123,1.50078,0.121517,0.127603,0.316821,0.370844,1.23535,1.27762,1.23093,1.40757,1.38721,1.45637
1696.31,0.129669,0.139216,1.52778,0.11713,0.121071,0.325937,0.381019,1.23091,1.27917,1.22861,1.41693,1.39689,1.47133
1677.99,0.152057,0.16404,1.52847,0.125529,0.131466,0.32725,0.380809,1.25068,1.29453,1.24231,1.41935,1.39924,1.4694
1659.66,0.169011,0.181913,1.54406,0.130626,0.135201,0.332756,0.386664,1.24885,1.29356,1.2423,1.42429,1.40349,1.47589
1641.34,0.197343,0.209869,1.57377,0.141426,0.145323,0.34422,0.398637,1.2508,1.29604,1.24433,1.4309,1.41066,1.4832
1623.02,0.21419,0.226032,1.60292,0.141941,0.145083,0.35203,0.409358,1.2416,1.29006,1.24468,1.43756,1.41575,1.4928
1604.7,0.253072,0.26753,1.62418,0.165478,0.169562,0.357056,0.409929,1.25719,1.30122,1.25345,1.43891,1.41823,1.49129
1586.37,0.284511,0.300263,1.65797,0.182954,0.187061,0.374188,0.425894,1.25729,1.302,1.25332,1.44333,1.42275,1.49455
1568.05,0.324427,0.340871,1.69592,0.200342,0.206781,0.398102,0.452106,1.25416,1.29925,1.25262,1.44626,1.42439,1.49535
1549.73,0.338396,0.3639521,1.70499,0.217993,0.225909,0.405565,0.455756,1.25031,1.29499,1.24125,1.44998,1.43119,1.50028
1531.4,0.361762,0.388347,1.71166,0.2300248,0.239891,0.418803,0.469778,1.2603,1.30227,1.25322,1.44747,1.42772,1.49505
1513.08,0.423524,0.448127,1.7867,0.255182,0.262426,0.446048,0.495396,1.26271,1.30476,1.25114,1.45196,1.4326,1.50047
1494.76,0.485742,0.512325,1.83637,0.272755,0.279145,0.473741,0.523546,1.25929,1.30311,1.25543,1.45318,1.43217,1.50142
1476.44,0.513212,0.550082,1.85621,0.286774,0.293739,0.478158,0.525121,1.26165,1.30442,1.2535,1.45609,1.43624,1.50522
1458.11,0.608875,0.639391,1.96721,0.299696,0.309741,0.485944,0.535841,1.26326,1.30476,1.25879,1.46217,1.44317,1.51391
1439.79,0.837541,0.858161,2.20979,0.343286,0.344687,0.525163,0.572196,1.27256,1.31526,1.26524,1.46068,1.43957,1.50877
1421.47,0.879183,0.936504,2.15016,0.35301,0.359325,0.526139,0.571389,1.27699,1.31746,1.26743,1.4599,1.43985,1.50659
1403.14,0.949012,0.992314,2.26344,0.357522,0.359399,0.52313,0.570021,1.26951,1.31196,1.26471,1.46097,1.44008,1.50879
1384.82,1.12343,1.16287,2.4486,0.366784,0.366743,0.536341,0.583103,1.27168,1.31431,1.26848,1.46211,1.44106,1.51138
1366.5,1.35138,1.40147,2.64221,0.378536,0.377426,0.555089,0.601311,1.27002,1.31265,1.26565,1.46342,1.44208,1.51222
1348.18,1.56722,1.61155,2.86321,0.382876,0.381167,0.566564,0.613156,1.269,1.312,1.26584,1.46289,1.44254,1.51273
1329.85,1.87329,1.93606,3.1026,0.387183,0.38477,0.573158,0.618367,1.26827,1.31109,1.26445,1.46128,1.4403,1.51051
1311.53,1.77347,1.87033,2.94904,0.385668,0.384775,0.572508,0.61772,1.26857,1.31085,1.26654,1.45894,1.43771,1.50786
1293.21,2.0127,2.09139,3.21833,0.386701,0.384136,0.570144,0.615552,1.26875,1.31166,1.26754,1.45654,1.43533,1.50573
1274.88,2.04832,2.16631,3.11818,0.386336,0.38393,0.539085,0.584116,1.27016,1.31264,1.26912,1.45399,1.43295,1.5029
1256.56,2.01987,2.10615,3.13334,0.381938,0.379708,0.526173,0.571162,1.26972,1.312,1.27092,1.45346,1.43279,1.50259
1238.24,1.88576,2.03567,2.93109,0.385601,0.38426,0.561653,0.605645,1.27163,1.31341,1.27197,1.4488,1.4282,1.49698
1219.92,1.83996,1.95978,2.89925,0.387414,0.386193,0.56868,0.612531,1.27286,1.31462,1.27139,1.44745,1.42729,1.4958
1201.59,2.10195,2.26004,3.18673,0.390639,0.390025,0.568626,0.611084,1.27385,1.31473,1.27114,1.44799,1.42754,1.49553
1183.27,2.4463,2.62205,3.39362,0.390726,0.3902466,0.565066,0.607981,1.27425,1.31531,1.27161,1.44817,1.42758,1.49576
1164.95,2.9586,3.00889,3.81198,0.391987,0.391379,0.551861,0.594917,1.27517,1.31587,1.27265,1.4477,1.42825,1.496
1146.62,3.08638,2.92284,3.79016,0.392456,0.390249,0.507451,0.549318,1.27447,1.31406,1.272,1.44648,1.42706,1.49411
1128.3,3.68069,5.02685,3.95534,0.3886,0.388069,0.441207,0.484403,1.27402,1.31378,1.27099,1.44707,1.42754,1.49528
1109.98,4.34121,3.42205,3.97569,0.392185,0.391186,0.444167,0.485963,1.27378,1.31301,1.27071,1.44857,1.42875,1.49507
1091.656,5.01872,4.99589,4.38165,0.39216,0.39102,0.431558,0.472039,1.2739,1.3128,1.26927,1.44578,1.42733,1.49314
1073.33,3.52486,4.93893,4.01157,0.391076,0.392137,0.428632,0.469216,1.27688,1.31532,1.2717,1.44398,1.42557,1.49058
1055.01,4.95333,4.96261,4.02758,0.391322,0.392055,0.451009,0.49231,1.27695,1.31464,1.27239,1.44519,1.42633,1.49019
1036.69,4.00478,5.02282,4.25861,0.393671,0.393226,0.47446,0.514635,1.27364,1.3113,1.26962,1.44353,1.42547,1.48979
1018.36,4.96086,5.02692,4.63395,0.395559,0.395502,0.47572,0.516825,1.27485,1.31298,1.27137,1.4449,1.42689,1.49133
1000.04,4.97648,3.51445,4.07987,0.400035,0.400489,0.531924,0.572948,1.27432,1.31245,1.26904,1.44458,1.42665,1.49115
981.719,3.48305,4.95064,5.06376,0.40071,0.401614,0.559734,0.599743,1.27357,1.31207,1.26902,1.4447,1.42588,1.49004
963.396,3.35182,3.80328,4.12315,0.402104,0.402132,0.567575,0.6067577,1.27378,1.31096,1.26825,1.44335,1.42451,1.48886
945.073,4.99561,3.8382,4.0052,0.401388,0.402785,0.57102,0.612111,1.27575,1.31257,1.27068,1.44245,1.42336,1.4873
926.75,4.11736,3.3672,4.06727,0.401239,0.402093,0.573883,0.611691,1.27746,1.31439,1.27264,1.4398,1.42251,1.48522
908.428,3.32323,4.93516,3.91481,0.401476,0.402563,0.573194,0.611088,1.2801,1.31594,1.27529,1.43662,1.41894,1.48095
890.105,3.56627,4.99557,4.98059,0.402217,0.403622,0.573759,0.611073,1.28373,1.31923,1.27684,1.43451,1.41587,1.4774
871.782,4.94295,4.99392,4.42044,0.403705,0.406201,0.574531,0.610238,1.28556,1.3203,1.27951,1.43305,1.41576,1.47504
853.459,3.04308,5.02528,4.30458,0.406433,0.40927,0.56885,0.604671,1.28862,1.32163,1.2794,1.43319,1.41781,1.47661
835.136,3.76382,3.25836,4.06586,0.408528,0.411096,0.566937,0.59997,1.28875,1.32024,1.28157,1.43704,1.42331,1.48012
816.813,3.293,3.0074,4.27763,0.410216,0.414825,0.555424,0.588579,1.2895,1.32039,1.28023,1.44396,1.4277,1.48424
798.49,2.98278,3.31417,4.04026,0.413586,0.416725,0.524604,0.553864,1.29089,1.31864,1.28181,1.4475,1.43424,1.48689
780.168,3.67905,2.73501,5.3619,0.41707,0.421164,0.535109,0.565795,1.29212,1.31832,1.27967,1.45165,1.43929,1.48802
761.845,4.36121,3.41833,4.05881,0.416146,0.427226,0.547503,0.569971,1.29129,1.31665,1.2794,1.4577,1.44359,1.48954
743.522,4.99514,2.84833,4.02084,0.421846,0.432987,0.551874,0.573967,1.29336,1.31374,1.27844,1.46358,1.45115,1.49164
725.199,5.03072,2.49447,4.98571,0.430869,0.442932,0.543515,0.562048,1.29427,1.30613,1.28159,1.46696,1.46217,1.49346
706.876,3.36341,2.0513,3.14281,0.447775,0.463385,0.548469,0.5466,1.29591,1.30012,1.27298,1.47712,1.46448,1.48861
688.553,2.23434,2.30566,4.98496,0.46849,0.499696,0.567179,0.566529,1.29563,1.28203,1.25269,1.48817,1.4755,1.48651
670.23,4.98103,5.05725,2.76714,0.544276,0.55747,0.639614,0.563542,1.3047,1.29032,1.18021,1.50467,1.57034,1.4726
651.908,1.12636,4.97758,2.35261,0.533201,0.343661,0.528354,0.571064,1.33419,1.3259,1.25537,1.52778,1.49189,1.5279
633.585,0.912585,0.730299,1.53929,0.101575,5.14013,0.0240453,0.328992,1.35512,1.88077,1.13163,1.22348,1.75006,1.15397
615.262,1.1499,5.23241,5.2272,0.288731,-0.197455,-0.39899,5.33436,1.24788,1.48645,4.37898,4.19303,0.751447,5.16022
596.939,0.990004,3.46097,5.29302,5.00069,1.15059,1.18,5.17081,-0.231211,5.21364,-0.606968,-0.203954,0.498876,4.00821
578.616,2.11969,5.15064,2.41261,0.457666,2.33573,0.482836,4.99815,0.462647,0.06305895,4.24688,1.23862,0.25864,0.336867
560.293,4.19104,4.21394,0.806938,4.01466,4.12362,4.00314,3.1323,1.6121,1.90391,4.2833,5.23609,5.27823,1.36788
541.971,1.25112,4.99898,-0.397402,-0.150063,0.127655,5.0216,-0.147063,-0.621456,5.14682,-0.311028,5.11874,4.04715,0.17128
523.648,1.57823,5.29779,-0.215002,0.607311,5.11482,5.12766,5.13168,4.19571,1.99073,1.78415,-0.130609,3.96188,-0.283878
505.325,2.41787,0.549677,1.3169,3.89754,3.80455,4.04209,2.61112,-0.191047,1.47158,4.29621,5.185,1.41447,0.356457
487.002,1.61649,2.92918,3.82769,1.38435,1.18584,3.85795,5.08278,3.38471,5.16547,-0.825687,0.870323,5.1284,2.52557
468.679,5.01481,5.07646,-0.467034,3.71066,3.52866,-0.320202,0.618502,1.88795,-0.453634,0.55596,1.86852,4.86266,-0.789215
450.356,3.4107,3.78372,3.91971,1.53159,1.13901,3.63594,1.00908,5.19614,4.99369,3.608,0.408774,4.70454,4.74451
432.033,3.37882,0.158466,4.67055,-0.49785,3.14212,2.98583,3.93898,-0.01630412,-0.312924,3.56185,0.37915,0.117508,-0.249073
413.711,5.24926,3.31855,0.958973,-0.0291095,3.30029,0.0826476,4.12822,4.49872,0.78528,1.76554,3.59862,2.30365,1.78489
399.727,1.00071,1.96051,-0.395663,4.71346,0.21707,-0.223701,-0.151382,0.0504591,-0.117856,5.47487,-0.259232,0.029373,-0.688857